File: Elastomer_G25_10,1 2.txt
wavenumbers   absorbance
399.371  	47.6936
402.245  	48.8194
405.118  	52.6356
407.991  	55.2876
410.864  	60.328
413.737  	64.3463
416.61  	68.3544
419.484  	70.2535
422.357  	70.8963
425.23  	70.436
428.103  	71.2629
430.976  	71.96
433.85  	70.9571
436.723  	71.2118
439.596  	72.8076
442.469  	72.666
445.342  	72.5151
448.215  	73.8081
451.089  	73.7764
453.962  	75.4687
456.835  	76.4297
459.708  	76.8428
462.581  	76.6777
465.454  	76.6911
468.328  	77.303
471.201  	77.8566
474.074  	78.2536
476.947  	77.9647
479.82  	77.9504
482.693  	77.9639
485.567  	77.6973
488.44  	77.6789
491.313  	77.5315
494.186  	76.8273
497.059  	76.6824
499.933  	76.9304
502.806  	77.0372
505.679  	76.7331
508.552  	76.9317
511.425  	76.7187
514.298  	76.8953
517.172  	76.5938
520.045  	76.4997
522.918  	76.3856
525.791  	77.118
528.664  	77.2154
531.537  	77.0538
534.411  	77.2582
537.284  	77.2063
540.157  	77.2642
543.03  	77.6165
545.903  	77.5126
548.777  	77.5579
551.65  	77.839
554.523  	77.8931
557.396  	78.2374
560.269  	78.3572
563.142  	78.457
566.016  	78.8847
568.889  	79.4757
571.762  	79.6157
574.635  	80.3297
577.508  	81.2799
580.381  	82.1102
583.255  	83.4242
586.128  	84.4304
589.001  	85.1317
591.874  	85.4247
594.747  	84.7711
597.621  	83.5546
600.494  	82.6435
603.367  	83.9862
606.24  	86.0617
609.113  	87.1922
611.986  	87.4435
614.86  	87.0681
617.733  	86.9223
620.606  	86.7246
623.479  	86.2728
626.352  	86.1345
629.225  	86.1811
632.099  	86.152
634.972  	86.2817
637.845  	86.4213
640.718  	86.6487
643.591  	86.8754
646.465  	86.2376
649.338  	85.1886
652.211  	83.9238
655.084  	80.7386
657.957  	74.1758
660.83  	70.397
663.704  	71.8677
666.577  	72.9634
669.45  	72.9853
672.323  	72.5442
675.196  	71.6541
678.069  	69.9699
680.943  	68.0876
683.816  	65.9366
686.689  	64.5491
689.562  	64.3052
692.435  	64.8409
695.308  	65.2512
698.182  	65.3799
701.055  	65.3345
703.928  	65.8758
706.801  	67.6235
709.674  	70.4102
712.548  	73.0923
715.421  	74.4859
718.294  	74.6432
721.167  	74.0628
724.04  	73.0601
726.913  	71.7774
729.787  	70.3531
732.66  	68.6279
735.533  	66.4915
738.406  	63.8941
741.279  	60.9831
744.152  	57.4805
747.026  	52.7732
749.899  	46.548
752.772  	40.1555
755.645  	36.9021
758.518  	38.3742
761.392  	40.9749
764.265  	40.9416
767.138  	38.0529
770.011  	33.4463
772.884  	27.8426
775.757  	22.1993
778.631  	16.85
781.504  	12.6081
784.377  	9.970485
787.25  	8.996053
790.123  	9.619602
792.996  	11.3418
795.87  	13.937
798.743  	17.42
801.616  	21.5788
804.489  	26.2371
807.362  	30.88
810.236  	35.1093
813.109  	38.5518
815.982  	41.147
818.855  	44.0433
821.728  	48.6417
824.601  	54.1711
827.475  	58.5907
830.348  	60.39
833.221  	59.5799
836.094  	56.6775
838.967  	52.909
841.84  	50.3883
844.714  	50.5021
847.587  	53.058
850.46  	56.4118
853.333  	58.9101
856.206  	59.6771
859.08  	58.6216
861.953  	57.0993
864.826  	56.8252
867.699  	58.8227
870.572  	62.7583
873.445  	67.5916
876.319  	72.1175
879.192  	75.9513
882.065  	79.1872
884.938  	81.7808
887.811  	83.7625
890.684  	85.2518
893.558  	86.3736
896.431  	87.2321
899.304  	87.7715
902.177  	87.9537
905.05  	87.8004
907.923  	87.567
910.797  	87.5657
913.67  	88.1955
916.543  	89.199
919.416  	90.1816
922.289  	90.9575
925.163  	91.3073
928.036  	91.5645
930.909  	91.4964
933.782  	91.4391
936.655  	91.2542
939.528  	90.8636
942.402  	90.4892
945.275  	89.8239
948.148  	88.9699
951.021  	87.7961
953.894  	86.4542
956.767  	85.0202
959.641  	83.5665
962.514  	81.811
965.387  	79.7075
968.26  	77.0844
971.133  	73.9628
974.007  	70.3482
976.88  	66.1646
979.753  	61.4249
982.626  	56.2053
985.499  	50.3933
988.372  	44.3777
991.246  	38.1853
994.119  	31.8761
996.992  	25.8177
999.865  	20.481
1002.74  	16.2777
1005.61  	13.4254
1008.48  	12.0621
1011.36  	12.3108
1014.23  	13.8027
1017.1  	15.8182
1019.98  	17.9765
1022.85  	19.9171
1025.72  	21.6243
1028.6  	22.877
1031.47  	23.7138
1034.34  	24.3466
1037.22  	24.7209
1040.09  	24.8141
1042.96  	24.7164
1045.84  	24.5988
1048.71  	24.3815
1051.58  	24.1765
1054.46  	24.0428
1057.33  	24.0664
1060.2  	24.2637
1063.07  	24.4942
1065.95  	24.9016
1068.82  	25.5691
1071.69  	26.3306
1074.57  	27.2739
1077.44  	28.4955
1080.31  	30.0804
1083.19  	31.8946
1086.06  	33.9719
1088.93  	36.4983
1091.81  	39.4326
1094.68  	42.6349
1097.55  	46.0809
1100.43  	49.7537
1103.3  	53.5259
1106.17  	57.1637
1109.05  	60.6997
1111.92  	64.061
1114.79  	67.2334
1117.67  	70.0859
1120.54  	72.525
1123.41  	74.6807
1126.28  	76.5576
1129.16  	78.041
1132.03  	79.17
1134.9  	80.0359
1137.78  	80.8601
1140.65  	81.7959
1143.52  	82.6631
1146.4  	83.35
1149.27  	83.9
1152.14  	84.2796
1155.02  	84.5665
1157.89  	84.8344
1160.76  	85.041
1163.64  	85.2142
1166.51  	85.3056
1169.38  	85.4291
1172.26  	85.527
1175.13  	85.6173
1178  	85.7237
1180.88  	85.8161
1183.75  	85.9387
1186.62  	86.0569
1189.49  	86.2094
1192.37  	86.4674
1195.24  	86.7937
1198.11  	87.1658
1200.99  	87.6428
1203.86  	88.2207
1206.73  	88.8689
1209.61  	89.559
1212.48  	90.3118
1215.35  	91.005
1218.23  	91.6435
1221.1  	92.1728
1223.97  	92.5494
1226.85  	92.7526
1229.72  	92.7919
1232.59  	92.5148
1235.47  	91.8937
1238.34  	90.7244
1241.21  	88.6185
1244.09  	84.5573
1246.96  	76.5603
1249.83  	63.1716
1252.7  	50.6928
1255.58  	43.8419
1258.45  	41.9215
1261.32  	47.7926
1264.2  	60.6936
1267.07  	74.9687
1269.94  	84.8194
1272.82  	89.9537
1275.69  	92.5885
1278.56  	94.1451
1281.44  	95.0875
1284.31  	95.7385
1287.18  	96.2478
1290.06  	96.6096
1292.93  	96.8742
1295.8  	97.1422
1298.68  	97.3438
1301.55  	97.5147
1304.42  	97.6518
1307.29  	97.7881
1310.17  	97.8979
1313.04  	98.0039
1315.91  	98.1444
1318.79  	98.2217
1321.66  	98.297
1324.53  	98.395
1327.41  	98.5066
1330.28  	98.5225
1333.15  	98.5549
1336.03  	98.5917
1338.9  	98.6063
1341.77  	98.5223
1344.65  	98.5802
1347.52  	98.6005
1350.39  	98.6085
1353.27  	98.6037
1356.14  	98.5866
1359.01  	98.5834
1361.89  	98.5863
1364.76  	98.4081
1367.63  	98.4644
1370.5  	98.3515
1373.38  	98.3597
1376.25  	98.2362
1379.12  	98.1856
1382  	98.093
1384.87  	97.9596
1387.74  	97.6362
1390.62  	97.3272
1393.49  	96.9201
1396.36  	95.9897
1399.24  	95.4161
1402.11  	95.0304
1404.98  	94.7041
1407.86  	94.4031
1410.73  	94.1796
1413.6  	94.2197
1416.48  	94.8136
1419.35  	95.5587
1422.22  	96.4255
1425.1  	97.0394
1427.97  	97.5793
1430.84  	97.6777
1433.71  	97.8411
1436.59  	97.7425
1439.46  	97.494
1442.33  	97.3509
1445.21  	97.2932
1448.08  	97.3618
1450.95  	97.6441
1453.83  	97.9462
1456.7  	98.1942
1459.57  	98.105
1462.45  	98.5245
1465.32  	98.5731
1468.19  	98.7263
1471.07  	99.0775
1473.94  	98.8038
1476.81  	98.897
1479.69  	99.0326
1482.56  	98.9646
1485.43  	99.1411
1488.3  	99.2209
1491.18  	99.0237
1494.05  	99.3084
1496.92  	99.2234
1499.8  	99.1633
1502.67  	99.2477
1505.54  	99.6082
1508.42  	98.8664
1511.29  	99.1818
1514.16  	99.2206
1517.04  	99.1458
1519.91  	99.4246
1522.78  	98.939
1525.66  	99.2044
1528.53  	99.0658
1531.4  	99.2693
1534.28  	98.9464
1537.15  	99.3635
1540.02  	99.1456
1542.9  	98.9494
1545.77  	98.9682
1548.64  	99.2628
1551.51  	99.1042
1554.39  	99.2168
1557.26  	99.7001
1560.13  	98.7326
1563.01  	99.2708
1565.88  	99.2029
1568.75  	99.4326
1571.63  	99.0993
1574.5  	99.4669
1577.37  	98.9761
1580.25  	99.1844
1583.12  	99.137
1585.99  	99.123
1588.87  	99.1224
1591.74  	99.0741
1594.61  	99.0014
1597.49  	98.9332
1600.36  	99.0257
1603.23  	99.0502
1606.11  	99.0757
1608.98  	99.0464
1611.85  	99.0354
1614.72  	99.2908
1617.6  	98.9128
1620.47  	99.1307
1623.34  	99.0876
1626.22  	99.1204
1629.09  	99.0316
1631.96  	99.1619
1634.84  	99.3519
1637.71  	98.8352
1640.58  	99.0913
1643.46  	99.2322
1646.33  	99.2117
1649.2  	98.9446
1652.08  	99.6981
1654.95  	98.6658
1657.82  	99.2105
1660.7  	99.3493
1663.57  	99.2172
1666.44  	99.4764
1669.32  	99.4961
1672.19  	99.3857
1675.06  	99.5888
1677.93  	99.5203
1680.81  	99.6048
1683.68  	99.9433
1686.55  	99.4225
1689.43  	99.7158
1692.3  	99.722
1695.17  	100.045
1698.05  	99.8965
1700.92  	99.5105
1703.79  	99.9946
1706.67  	99.74
1709.54  	99.8308
1712.41  	99.9783
1715.29  	100.037
1718.16  	99.7633
1721.03  	99.8282
1723.91  	99.9003
1726.78  	99.9034
1729.65  	99.9815
1732.52  	100.231
1735.4  	99.5408
1738.27  	100.128
1741.14  	99.898
1744.02  	99.939
1746.89  	100.075
1749.76  	100.092
1752.64  	99.8101
1755.51  	100.123
1758.38  	99.9573
1761.26  	100.077
1764.13  	99.8894
1767  	100.163
1769.88  	100.08
1772.75  	99.9112
1775.62  	99.978
1778.5  	100.065
1781.37  	99.966
1784.24  	100.081
1787.12  	99.9666
1789.99  	100.183
1792.86  	99.9623
1795.73  	100.051
1798.61  	100.128
1801.48  	100.071
1804.35  	100.124
1807.23  	100.227
1810.1  	100.233
1812.97  	100.178
1815.85  	100.393
1818.72  	100.274
1821.59  	100.284
1824.47  	100.307
1827.34  	100.344
1830.21  	100.256
1833.09  	100.288
1835.96  	100.293
1838.83  	100.341
1841.71  	100.407
1844.58  	100.229
1847.45  	100.291
1850.33  	100.287
1853.2  	100.279
1856.07  	100.277
1858.94  	100.322
1861.82  	100.283
1864.69  	100.366
1867.56  	100.468
1870.44  	100.193
1873.31  	100.265
1876.18  	100.259
1879.06  	100.329
1881.93  	100.342
1884.8  	100.302
1887.68  	100.389
1890.55  	100.264
1893.42  	100.373
1896.3  	100.313
1899.17  	100.372
1902.04  	100.354
1904.92  	100.337
1907.79  	100.339
1910.66  	100.182
1913.53  	100.225
1916.41  	100.277
1919.28  	100.177
1922.15  	100.338
1925.03  	100.215
1927.9  	100.231
1930.77  	100.215
1933.65  	100.152
1936.52  	100.149
1939.39  	99.9812
1942.27  	100.084
1945.14  	100.098
1948.01  	100.083
1950.89  	100.119
1953.76  	100.283
1956.63  	100.249
1959.51  	100.431
1962.38  	100.538
1965.25  	100.361
1968.13  	100.408
1971  	100.787
1973.87  	100.872
1976.74  	100.698
1979.62  	100.144
1982.49  	100.577
1985.36  	100.727
1988.24  	100.806
1991.11  	100.991
1993.98  	101.016
1996.86  	101.066
1999.73  	101.23
2002.6  	101.373
2005.48  	101.328
2008.35  	101.293
2011.22  	101.305
2014.1  	101.16
2016.97  	101.29
2019.84  	101.248
2022.72  	101.292
2025.59  	101.436
2028.46  	101.788
2031.34  	101.35
2034.21  	101.395
2037.08  	101.285
2039.95  	101.206
2042.83  	101.159
2045.7  	101.042
2048.57  	100.837
2051.45  	100.834
2054.32  	101.008
2057.19  	100.96
2060.07  	100.81
2062.94  	100.889
2065.81  	101.023
2068.69  	100.931
2071.56  	100.778
2074.43  	100.765
2077.31  	100.796
2080.18  	100.806
2083.05  	100.849
2085.93  	100.956
2088.8  	100.934
2091.67  	100.942
2094.55  	101.015
2097.42  	100.911
2100.29  	100.932
2103.16  	100.876
2106.04  	100.776
2108.91  	100.885
2111.78  	100.806
2114.66  	100.827
2117.53  	100.916
2120.4  	100.912
2123.28  	100.832
2126.15  	100.927
2129.02  	101.159
2131.9  	101.388
2134.77  	101.222
2137.64  	100.928
2140.52  	101.154
2143.39  	100.999
2146.26  	101.007
2149.14  	101.032
2152.01  	101.19
2154.88  	101.392
2157.75  	101.729
2160.63  	100.671
2163.5  	100.692
2166.37  	100.628
2169.25  	100.914
2172.12  	100.962
2174.99  	101.12
2177.87  	100.942
2180.74  	100.938
2183.61  	100.868
2186.49  	100.937
2189.36  	101.014
2192.23  	101.095
2195.11  	101.107
2197.98  	100.982
2200.85  	100.869
2203.73  	100.96
2206.6  	100.938
2209.47  	100.833
2212.35  	100.984
2215.22  	100.837
2218.09  	100.96
2220.96  	100.916
2223.84  	100.799
2226.71  	100.91
2229.58  	100.76
2232.46  	100.772
2235.33  	100.845
2238.2  	100.764
2241.08  	100.732
2243.95  	100.862
2246.82  	100.741
2249.7  	100.801
2252.57  	100.812
2255.44  	100.777
2258.32  	100.694
2261.19  	100.688
2264.06  	100.787
2266.94  	100.701
2269.81  	100.702
2272.68  	100.645
2275.56  	100.602
2278.43  	100.647
2281.3  	100.612
2284.17  	100.494
2287.05  	100.609
2289.92  	100.569
2292.79  	100.614
2295.67  	100.662
2298.54  	100.666
2301.41  	100.674
2304.29  	100.667
2307.16  	100.615
2310.03  	100.698
2312.91  	100.65
2315.78  	100.668
2318.65  	100.679
2321.53  	100.545
2324.4  	100.442
2327.27  	100.849
2330.15  	100.875
2333.02  	100.907
2335.89  	100.943
2338.76  	100.878
2341.64  	100.897
2344.51  	100.84
2347.38  	100.66
2350.26  	101.073
2353.13  	101.113
2356  	101.051
2358.88  	101.106
2361.75  	101.143
2364.62  	101.091
2367.5  	101.089
2370.37  	101.07
2373.24  	100.904
2376.12  	100.833
2378.99  	100.81
2381.86  	100.796
2384.74  	100.792
2387.61  	100.785
2390.48  	100.8
2393.36  	100.821
2396.23  	100.801
2399.1  	100.777
2401.97  	100.77
2404.85  	100.808
2407.72  	100.724
2410.59  	100.716
2413.47  	100.678
2416.34  	100.684
2419.21  	100.704
2422.09  	100.731
2424.96  	100.786
2427.83  	100.698
2430.71  	100.659
2433.58  	100.734
2436.45  	100.679
2439.33  	100.697
2442.2  	100.674
2445.07  	100.66
2447.95  	100.706
2450.82  	100.647
2453.69  	100.675
2456.57  	100.636
2459.44  	100.689
2462.31  	100.692
2465.18  	100.704
2468.06  	100.658
2470.93  	100.651
2473.8  	100.685
2476.68  	100.687
2479.55  	100.595
2482.42  	100.687
2485.3  	100.618
2488.17  	100.622
2491.04  	100.636
2493.92  	100.547
2496.79  	100.545
2499.66  	100.551
2502.54  	100.612
2505.41  	100.609
2508.28  	100.589
2511.16  	100.625
2514.03  	100.613
2516.9  	100.595
2519.77  	100.648
2522.65  	100.643
2525.52  	100.675
2528.39  	100.688
2531.27  	100.659
2534.14  	100.645
2537.01  	100.686
2539.89  	100.749
2542.76  	100.699
2545.63  	100.668
2548.51  	100.73
2551.38  	100.665
2554.25  	100.689
2557.13  	100.665
2560  	100.684
2562.87  	100.652
2565.75  	100.685
2568.62  	100.633
2571.49  	100.645
2574.37  	100.649
2577.24  	100.667
2580.11  	100.664
2582.98  	100.653
2585.86  	100.658
2588.73  	100.635
2591.6  	100.624
2594.48  	100.667
2597.35  	100.645
2600.22  	100.638
2603.1  	100.635
2605.97  	100.59
2608.84  	100.614
2611.72  	100.589
2614.59  	100.57
2617.46  	100.586
2620.34  	100.574
2623.21  	100.593
2626.08  	100.568
2628.96  	100.551
2631.83  	100.552
2634.7  	100.494
2637.58  	100.492
2640.45  	100.5
2643.32  	100.45
2646.19  	100.408
2649.07  	100.454
2651.94  	100.393
2654.81  	100.376
2657.69  	100.385
2660.56  	100.395
2663.43  	100.41
2666.31  	100.432
2669.18  	100.424
2672.05  	100.447
2674.93  	100.457
2677.8  	100.463
2680.67  	100.458
2683.55  	100.495
2686.42  	100.494
2689.29  	100.499
2692.17  	100.492
2695.04  	100.478
2697.91  	100.473
2700.79  	100.48
2703.66  	100.49
2706.53  	100.479
2709.4  	100.456
2712.28  	100.461
2715.15  	100.426
2718.02  	100.439
2720.9  	100.458
2723.77  	100.446
2726.64  	100.464
2729.52  	100.44
2732.39  	100.455
2735.26  	100.453
2738.14  	100.445
2741.01  	100.429
2743.88  	100.425
2746.76  	100.402
2749.63  	100.417
2752.5  	100.386
2755.38  	100.402
2758.25  	100.361
2761.12  	100.372
2763.99  	100.325
2766.87  	100.3
2769.74  	100.282
2772.61  	100.272
2775.49  	100.25
2778.36  	100.207
2781.23  	100.137
2784.11  	100.082
2786.98  	100.044
2789.85  	100.002
2792.73  	99.9404
2795.6  	99.9251
2798.47  	99.9109
2801.35  	99.9284
2804.22  	99.8873
2807.09  	99.9051
2809.97  	99.8886
2812.84  	99.9176
2815.71  	99.9037
2818.59  	99.9109
2821.46  	99.9152
2824.33  	99.9037
2827.2  	99.8925
2830.08  	99.8807
2832.95  	99.8542
2835.82  	99.8626
2838.7  	99.8326
2841.57  	99.8131
2844.44  	99.7662
2847.32  	99.7085
2850.19  	99.6762
2853.06  	99.6807
2855.94  	99.7236
2858.81  	99.7269
2861.68  	99.686
2864.56  	99.6813
2867.43  	99.6205
2870.3  	99.5789
2873.18  	99.4669
2876.05  	99.3809
2878.92  	99.3162
2881.8  	99.2104
2884.67  	99.1093
2887.54  	98.9494
2890.41  	98.7529
2893.29  	98.4851
2896.16  	98.12
2899.03  	97.6867
2901.91  	97.3152
2904.78  	97.1709
2907.65  	97.3538
2910.53  	97.6749
2913.4  	98.0293
2916.27  	98.2466
2919.15  	98.4195
2922.02  	98.5829
2924.89  	98.6668
2927.77  	98.6208
2930.64  	98.5302
2933.51  	98.3825
2936.39  	98.1649
2939.26  	97.7906
2942.13  	97.2616
2945  	96.5245
2947.88  	95.3247
2950.75  	93.4914
2953.62  	90.7786
2956.5  	87.2361
2959.37  	83.641
2962.24  	82.0694
2965.12  	83.4386
2967.99  	86.7106
2970.86  	90.1701
2973.74  	93.0431
2976.61  	95.1103
2979.48  	96.5253
2982.36  	97.4894
2985.23  	98.1367
2988.1  	98.5967
2990.98  	98.9364
2993.85  	99.1654
2996.72  	99.3555
2999.6  	99.4642
3002.47  	99.5696
3005.34  	99.6169
3008.21  	99.6705
3011.09  	99.7478
3013.96  	99.7684
3016.83  	99.7796
3019.71  	99.8294
3022.58  	99.8788
3025.45  	99.8766
3028.33  	99.8997
3031.2  	99.9123
3034.07  	99.8732
3036.95  	99.8749
3039.82  	99.8584
3042.69  	99.8697
3045.57  	99.8696
3048.44  	99.8633
3051.31  	99.8299
3054.19  	99.8236
3057.06  	99.8869
3059.93  	99.9319
3062.81  	99.9115
3065.68  	99.8702
3068.55  	99.9199
3071.42  	99.9135
3074.3  	99.9531
3077.17  	99.9792
3080.04  	100.031
3082.92  	99.9819
3085.79  	100.012
3088.66  	100.003
3091.54  	100.022
3094.41  	99.9948
3097.28  	100.002
3100.16  	100
3103.03  	99.9906
3105.9  	100.048
3108.78  	100.026
3111.65  	100.05
3114.52  	100.035
3117.4  	100.076
3120.27  	100.079
3123.14  	100.092
3126.02  	100.087
3128.89  	100.083
3131.76  	100.134
3134.63  	100.137
3137.51  	100.123
3140.38  	100.134
3143.25  	100.174
3146.13  	100.158
3149  	100.187
3151.87  	100.165
3154.75  	100.139
3157.62  	100.224
3160.49  	100.174
3163.37  	100.193
3166.24  	100.191
3169.11  	100.263
3171.99  	100.179
3174.86  	100.283
3177.73  	100.275
3180.61  	100.239
3183.48  	100.244
3186.35  	100.22
3189.22  	100.225
3192.1  	100.2
3194.97  	100.254
3197.84  	100.291
3200.72  	100.214
3203.59  	100.215
3206.46  	100.235
3209.34  	100.27
3212.21  	100.259
3215.08  	100.253
3217.96  	100.283
3220.83  	100.211
3223.7  	100.269
3226.58  	100.228
3229.45  	100.265
3232.32  	100.218
3235.2  	100.27
3238.07  	100.255
3240.94  	100.229
3243.82  	100.277
3246.69  	100.236
3249.56  	100.219
3252.43  	100.161
3255.31  	100.144
3258.18  	100.177
3261.05  	100.181
3263.93  	100.217
3266.8  	100.217
3269.67  	100.155
3272.55  	100.168
3275.42  	100.164
3278.29  	100.129
3281.17  	100.175
3284.04  	100.156
3286.91  	100.196
3289.79  	100.192
3292.66  	100.188
3295.53  	100.215
3298.41  	100.212
3301.28  	100.146
3304.15  	100.192
3307.03  	100.223
3309.9  	100.171
3312.77  	100.109
3315.64  	100.192
3318.52  	100.198
3321.39  	100.189
3324.26  	100.21
3327.14  	100.22
3330.01  	100.224
3332.88  	100.231
3335.76  	100.205
3338.63  	100.196
3341.5  	100.217
3344.38  	100.228
3347.25  	100.178
3350.12  	100.202
3353  	100.231
3355.87  	100.221
3358.74  	100.227
3361.62  	100.239
3364.49  	100.243
3367.36  	100.313
3370.23  	100.288
3373.11  	100.263
3375.98  	100.27
3378.85  	100.271
3381.73  	100.288
3384.6  	100.316
3387.47  	100.237
3390.35  	100.269
3393.22  	100.291
3396.09  	100.25
3398.97  	100.251
3401.84  	100.275
3404.71  	100.315
3407.59  	100.287
3410.46  	100.309
3413.33  	100.244
3416.21  	100.294
3419.08  	100.337
3421.95  	100.313
3424.83  	100.302
3427.7  	100.269
3430.57  	100.324
3433.44  	100.336
3436.32  	100.294
3439.19  	100.326
3442.06  	100.307
3444.94  	100.344
3447.81  	100.308
3450.68  	100.299
3453.56  	100.32
3456.43  	100.338
3459.3  	100.348
3462.18  	100.295
3465.05  	100.331
3467.92  	100.307
3470.8  	100.28
3473.67  	100.313
3476.54  	100.291
3479.42  	100.315
3482.29  	100.274
3485.16  	100.286
3488.04  	100.308
3490.91  	100.322
3493.78  	100.345
3496.65  	100.293
3499.53  	100.304
3502.4  	100.303
3505.27  	100.269
3508.15  	100.447
3511.02  	100.293
3513.89  	100.317
3516.77  	100.331
3519.64  	100.299
3522.51  	100.366
3525.39  	100.278
3528.26  	100.344
3531.13  	100.262
3534.01  	100.301
3536.88  	100.277
3539.75  	100.33
3542.63  	100.362
3545.5  	100.37
3548.37  	100.247
3551.25  	100.36
3554.12  	100.242
3556.99  	100.355
3559.86  	100.297
3562.74  	100.374
3565.61  	100.566
3568.48  	100.112
3571.36  	100.268
3574.23  	100.325
3577.1  	100.292
3579.98  	100.262
3582.85  	100.347
3585.72  	100.502
3588.6  	100.078
3591.47  	100.275
3594.34  	100.335
3597.22  	100.218
3600.09  	100.28
3602.96  	100.185
3605.84  	100.438
3608.71  	100.294
3611.58  	100.409
3614.45  	100.134
3617.33  	100.532
3620.2  	100.098
3623.07  	100.243
3625.95  	100.5
3628.82  	100.473
3631.69  	100.034
3634.57  	100.182
3637.44  	100.294
3640.31  	100.242
3643.19  	100.27
3646.06  	100.688
3648.93  	100.414
3651.81  	99.7737
3654.68  	100.56
3657.55  	100.048
3660.43  	100.27
3663.3  	100.298
3666.17  	100.445
3669.05  	100.733
3671.92  	100.038
3674.79  	100.853
3677.66  	99.9247
3680.54  	100.232
3683.41  	100.334
3686.28  	100.623
3689.16  	100.357
3692.03  	100.06
3694.9  	100.26
3697.78  	100.207
3700.65  	100.413
3703.52  	100.168
3706.4  	100.411
3709.27  	100.47
3712.14  	100.194
3715.02  	100.111
3717.89  	100.432
3720.76  	100.442
3723.64  	100.359
3726.51  	100.326
3729.38  	100.405
3732.26  	100.597
3735.13  	100.688
3738  	100.049
3740.87  	100.473
3743.75  	101.031
3746.62  	100.017
3749.49  	100.672
3752.37  	100.158
3755.24  	100.271
3758.11  	100.449
3760.99  	100.184
3763.86  	100.64
3766.73  	100.299
3769.61  	100.463
3772.48  	100.269
3775.35  	100.452
3778.23  	100.546
3781.1  	100.208
3783.97  	100.501
3786.85  	100.357
3789.72  	100.419
3792.59  	100.39
3795.46  	100.673
3798.34  	100.436
3801.21  	100.627
3804.08  	100.287
3806.96  	100.478
3809.83  	100.307
3812.7  	100.534
3815.58  	100.66
3818.45  	100.448
3821.32  	100.382
3824.2  	100.348
3827.07  	100.339
3829.94  	100.623
3832.82  	100.486
3835.69  	100.722
3838.56  	100.331
3841.44  	100.398
3844.31  	100.358
3847.18  	100.519
3850.06  	100.783
3852.93  	100.995
3855.8  	99.8859
3858.67  	100.483
3861.55  	100.639
3864.42  	100.633
3867.29  	100.569
3870.17  	100.53
3873.04  	100.664
3875.91  	100.292
3878.79  	100.871
3881.66  	100.326
3884.53  	100.874
3887.41  	100.153
3890.28  	100.812
3893.15  	100.276
3896.03  	100.561
3898.9  	100.751
3901.77  	100.573
3904.65  	100.345
3907.52  	100.387
3910.39  	100.57
3913.27  	100.582
3916.14  	100.715
3919.01  	100.492
3921.88  	100.513
3924.76  	100.559
3927.63  	100.559
3930.5  	100.613
3933.38  	100.4
3936.25  	100.519
3939.12  	100.486
3942  	100.62
3944.87  	100.45
3947.74  	100.563
3950.62  	100.487
3953.49  	100.478
3956.36  	100.523
3959.24  	100.534
3962.11  	100.467
3964.98  	100.483
3967.86  	100.486
3970.73  	100.47
3973.6  	100.516
3976.48  	100.456
3979.35  	100.461
3982.22  	100.458
3985.09  	100.485
3987.97  	100.475
3990.84  	100.432
3993.71  	100.494
3996.59  	100.464
3999.46  	100.483